Folder: FPSC

File: flexible solar cell.csv
?H(DOI),?L(DOI),Cell_area_measured,Cell_architecture,Substrate_stack_sequence,Perovskite_band_gap,Voc,Jsc,FF,PCE
0.06,0.06,0.1,nip,E,1.6,1.01,21.15,0.57,12.18
0.2,0.7,0.04,nip,E,1.53,1.08,20.06,0.6725,13.03
-0.04,0.32,1.3,pin,E,1.65,0.78,14.71,0.5346,6.16
0.2,0.63,2.052,nip,A,1.53,1.07,20.7,0.771,17.2
0.2,0.63,5.052,nip,A,1.53,0.93,19.6,0.589,10.9
0.2,0.5,0.09,nip,A,1.5,0.98,10.89,0.464,4.95
0.2,0.5,0.09,nip,A,1.5,1.03,21.66,0.689,15.29
0.4,0.43,0.1,pin,C,1.53,1.14,18.8,0.695,14.9
0.2,0.43,0.04,nip,E,1.53,1.08,17.07,0.63,14.5
0.3,0.53,1.096,nip,A,1.53,1.13,20.1,0.78,17.7
0.3,0.13,0.096,nip,H,1.53,1.1,17.4,0.76,14.5
0.3,0.13,0.096,nip,H,1.53,1.1,17.6,0.794,15.5
0.3,0.3,0.096,nip,H,1.5,0.955,17.8,0.58,9.8
0.07,0.27,0.06,nip,H,1.53,0.81,15.36,0.66,8.21
0.2,0.1,0.09,pin,A,1.5,1.103,22.55,0.782,19.44
0.06,0.83,1.1,pin,A,1.5,0.797,11.2,0.673,7.95
0.2,0.4,0.1,nip,E,1.5,1.058,21.36,0.68,15.35
0.2,0.53,0.06,nip,H,1.53,1.08,19.9,0.73,15.72
0.2,0.1,0.06,nip,H,1.5,1.03,19.71,0.7338,14.95
0.3,0,0.1,pin,A,1.5,0.75,22.15,0.27,4.4
0.2,0.3,0.075,nip,B,1.5,0.94,18.5,0.639,11.2
0.32,0.33,1.2,nip,H,1.61,1.07,23.9,0.75,19.2
0.2,0.43,0.06,nip,H,1.53,0.99,18.6,0.63,11.6
0.3,0.53,2.06,nip,H,1.53,1.13,20.1,0.77,17.5
0.4,0.6,5.06,nip,H,1.53,1.1,18.7,0.76,15.6
0.2,0.33,2.09,nip,C,1.53,1.07,21.95,0.74,17.38
0.25,0.25,0.2,pin,A,1.5,0.84,14.9,0.62,5
0.3,0.43,3.2,pin,A,1.53,0.87,9.2,0.59,4.7
0.4,0.43,0.1,pin,A,1.53,0.89,16.85,0.73,11.04
0.2,0.53,0.2,nip,A,1.53,1.08,11.27,0.45,5.54
0.1,0.2,0.08,pin,A,1.55,0.92,14.4,0.47,6.3
0.1,0.2,2.1017,nip,A,1.51,1.1,22.79,0.755,18.93
0.03,0.2,5.1017,nip,A,1.51,1.11,24.55,0.75,20.41
0.22,0.1,0.1,pin,A,1.5,0.97,21.83,0.751,15.87
0.06,0.1,3.1,pin,A,1.5,1.05,22.32,0.78,18.25
0.2,0.17,2.1,nip,E,1.53,1.11,23.01,0.8034,20.52
0.2,0.3,1.15,nip,H,1.5,0.87,19.9,0.64,11.1
0.21,0.47,0.12,nip,E,1.53,0.9,17.74,0.6289,10.24
0.4,0.33,0.1,pin,H,1.5,0.99,21.53,0.66,14.15
0.4,0.33,0.1,pin,H,1.5,0.96,20.5,0.62,12.08
0.2,-0.1,0.112,nip,A,1.5,1.06,21.8,0.746,16.92
0.2,0.43,1.112,nip,A,1.5,1,20.2,0.71,14.34
0.2,0.1,1.112,nip,A,1.5,0.99,19.6,0.697,13.52
0.22,0.04,0.0314,nip,A,1.51,1.09,19.2,0.7,14.7
0.24,0.35,0.0725,nip,H,1.48,1.14,22.57,0.76,19.5
0.2,0.2,0.096,nip,E,1.5,1.06,21.6,0.668,15.3
0.23,0.47,0.06,pin,A,1.5,0.97,11,0.677,7.66
0.23,0.27,0.06,pin,A,1.5,1.05,22.6,0.721,17.1
0.03,0.03,0.06,pin,A,1.5,0.975,20.9,0.696,14.19
0.24,0.33,0.1,pin,H,1.6,1.08,20.83,0.7802,17.55
0.24,0.1,0.08,pin,C,1.5,1.12,22.23,0.8,20.15
0.2,0.63,0.1,nip,A,1.53,0.93,20.12,0.51,11.4
0.3,0.43,0.1,nip,A,1.5,0.95,16.2,0.45,7.8
0.4,0.43,1.1,pin,H,1.48,1.12,22.6,0.8,20.25
0.49,0.04,1.4,nip,E,1.57,0.868,15.04,0.477,6.23
0.34,0.04,1.4,nip,E,1.57,0.963,18.97,0.562,10.27
0.21,0.04,1.4,nip,E,1.57,0.942,17.48,0.463,7.62
0.1,0.1,0.12,pin,E,1.5,1.03,18.4,0.774,14.7
0.12,0.3,1.02,pin,E,1.5,1.07,21.88,0.79,18.49
0.2,0.3,1.02,pin,E,1.5,1.02,19.71,0.71,14.27
0.25,0.3,0.2,nip,A,1.5,0.882,14.8,0.69,8.9
0.2,0.46,0.1,nip,H,1.5,0.903,21.43,0.543,10.33
0.3,0.03,0.09,nip,A,1.62,1.19,21.63,0.7859,20.22
0.3,0.15,0.09,nip,A,1.62,1.1,22.68,0.76,19.14
0.2,0.43,0.07,pin,E,1.53,1.07,20.58,0.74,16.47
0.1,0.2,0.12,pin,H,1.55,0.94,15.5,0.69,10.12
0.24,0.8,0.12,pin,H,1.7,0.97,15,0.61,8.9
0.3,0.8,0.12,pin,H,1.7,0.95,16.88,0.66,10.51
0.4,0.8,0.12,pin,H,1.7,0.94,15.57,0.56,8.21
1.2,0.2,0.09,pin,E,1.4,0.33,17.78,0.679,3.98
0.1,0.4,0.096,nip,F,1.5,0.9,18.22,0.6026,10.76
0.2,0.4,0.11,pin,A,1.5,1.01,20.91,0.74,15.8
0.1,0.4,0.11,pin,A,1.5,1.02,19.58,0.75,15.06
0.33,0.37,0.11,pin,A,1.5,1.03,21.15,0.69,15.19
0.4,0.37,0.11,pin,A,1.5,1.1,18.66,0.52,10
0.2,0.43,0.12,nip,C,1.53,0.96,18.4,0.66,11
0.29,0.3,0.0464,pin,C,1.5,1.085,19.16,0.84,17.54
-0.02,0.73,0.16,nip,A,1.5,1.132,22.16,0.67,16.41
0.44,0.33,0.07,pin,A,1.64,0.64,12.9,0.613,5.14
0.2,0.52,0.1,nip,C,1.5,1.04,21.58,0.71,15.94
0.2,0.9,0.09,nip,E,1.6,0.894,14.89,0.483,6.46
0.2,0.3,0.1,nip,C,1.5,1.05,20.56,0.68,14.8
0.2,0.4,0.1,nip,C,1.5,0.98,18.9,0.5,8.7
0.2,0.33,1.2,nip,E,1.52,1.1,17.6,0.6,12.8
0.2,0.33,1.6,nip,E,1.52,1.9,3.3,0.48,8.3
0.4,0.2,0.1,pin,A,1.3,0.99,17.3,0.62,10.64
0.2,0.33,0.168,nip,E,1.71,0.89,14.82,0.41,5.42
0.2,0.53,0.09,nip,E,1.53,1.145,22.51,0.739,19.05
0.1,0.25,0.04,pin,A,1.55,0.96,22.4,0.7,15.2
0.2,0.43,0.11,pin,C,1.8,1.1,19.3,0.74,15.6
0.6,0.6,0.06,pin,C,1.5,0.9,16.91,0.55,8.37
0.6,0.6,0.06,pin,C,1.5,0.96,19.27,0.62,11.39
0.75,0.75,0.1,pin,H,1.49,0.88,16.6,0.764,11.16
0.2,0.33,0.1,pin,E,1.53,1.1,18.75,0.73,15.6
0.2,0.63,0.1,nip,A,1.53,1.08,23,0.6816,16.97
0.72,0.45,0.16,nip,H,1.58,1.12,20.1,0.72,16.2
0.72,0.45,1,nip,H,1.58,1.12,21.9,0.74,18.2
0.2,0.6,1,nip,E,1.72,1.14,18.4,0.66,13.9
0.2,0.33,0.1,nip,A,1.53,0.83,14.97,0.43,5.28
0.3,0.33,0.01,nip,E,1.53,0.99,18.58,0.69,12.82
0.33,0.33,0.12,pin,E,1.5,0.77,18.56,0.56,8.07
0.2,0.33,0.04,nip,H,1.53,0.97,17.7,0.7,12.06
0.08,0.25,0.1,nip,H,1.55,0.55,6.4,0.34,1.2
0.2,0.15,0.06,nip,E,1.75,1.06,19.3,0.76,15.21
0.2,0.36,0.09,nip,A,1.5,0.86,21.23,0.76,13.93
0.2,0.18,0.09,nip,A,1.5,1.03,20.34,0.73,15.28
0.2,0.53,0.07065,nip,A,1.53,0.46,16.5,0.31,2.4
0.2,0.63,0.1,nip,E,1.53,1.05,20.32,0.52,11.32
0.15,0.15,0.1,pin,F,1.5,0.91,19.5,0.8,14.2
0.3,0.45,0.11,pin,A,1.55,0.96,14.3,0.61,8.4
0.2,0.33,0.09,nip,A,1.55,0.94,17.65,0.6,9.93
0.34,0.11,0.04,pin,E,1.59,0.994,20.88,0.772,16.02
0.42,0.2,0.04,pin,E,1.59,0.805,18.6,0.59,8.94
0.3,0.4,0.07,nip,E,1.6,1.084,18.1,0.708,13.9
0.19,0.21,0.15,pin,H,1.69,0.94,15.1,0.53,7.5
0.2,0.51,0.1,pin,H,1.56,1.03,15.97,0.62,10.2
0.2,0.43,0.1,nip,E,1.55,1.06,18.84,0.73,14.9
0.2,0.43,0.07,nip,A,1.53,1.04,20.49,0.71,15.25
0.4,0.33,0.09,pin,A,1.53,0.94,21.47,0.72,14.64
0.1,0.6,0.1,pin,E,1.5,0.93,20.4,0.72,13.7
0.4,0.33,0.1,pin,H,1.53,0.941,18.13,0.68,11.64
0.1,0.9,0.12,nip,E,1.6,1.052,22.32,0.661,15.52
0.1,0.1,0.0314,nip,A,1.5,1.11,17.73,0.67,13.28
0.1,0.1,0.0314,nip,A,1.5,1.13,21.34,0.72,17.76
0.2,-0.37,0.15,nip,H,1.53,1.05,19.3,0.719,14.2
0.2,0.33,0.15,nip,H,1.53,1.09,18.7,0.69,14
0.43,0.37,0.11,pin,E,1.5,0.89,16.42,0.71,10.52
0.36,0.37,0.11,pin,E,1.5,0.89,18.97,0.72,12.46
0.45,0.8,1,pin,D,1.6,1.03,22.48,0.73,17.03
0.2,0.33,0.16,pin,A,1.4,0.94,17.8,0.69,11.5
0.38,0.47,0.09,nip,A,1.55,1.06,12.6,0.709,11.3
0.88,0.14,0.09,nip,A,1.92,1.18,14.6,0.77,13.5
0.2,0.43,0.16,nip,D,1.53,1.022,16.7,0.65,11
0.2,0.53,0.16,nip,D,1.53,0.98,14.7,0.71,10.3
0.2,0.33,0.04,pin,H,1.53,0.93,13.17,0.73,9.05
0.2,0.33,0.16,pin,H,1.53,0.94,16.58,0.72,11.22
0.2,0.43,0.14,nip,E,1.5,1.05,22.11,0.68,15.78
0.2,0.33,0.09,pin,E,1.6,1.02,20.6,0.73,15.3
0.2,0.6,0.14,nip,E,1.5,1.12,21.2,0.74,17.5
0.4,1.25,0.1,pin,B,1.53,0.79,18.1,0.73,18.1
0.3,0.33,0.04,pin,B,1.53,1.03,18.39,0.75,14.2
0.2,0.43,0.1,nip,G,1.53,0.87,7.24,0.68,4.36
0.4,0.33,0.09,nip,A,1.5,1.08,21.17,0.68,15.45
0.4,0.53,0.09,nip,A,1.5,1.1,21.29,0.71,16.7
0.4,0.33,0.096,pin,H,1.53,0.92,15.53,0.7,10.1
0.2,0.3,0.09,nip,E,1.5,0.98,21.41,0.75,15.65
0.2,0.83,0.108,nip,A,1.5,0.1,20.59,0.76,15.49
0.2,0.2,0.12,nip,E,1.4,0.99,22.61,0.67,15.18
0.2,0.43,0.09,pin,A,1.53,1,22,0.77,17
0.4,0.1,0.1,pin,A,1.5,0.87,18.68,0.65,10.7
0.2,0.43,0.06,nip,A,1.53,0.83,19.34,0.45,7.33
0.2,0.1,0.09,pin,F,1.5,1.05,21.51,0.76,17.42
0.2,0.1,0.06,nip,E,1.53,1.03,20.7,0.73,15.45
0.43,0.27,0.1,pin,A,1.5,0.97,21,0.7,15.01
0.15,0.17,0.09,pin,A,1.55,1,19.7,0.733,14.4
0.2,0.43,0.1,nip,H,1.53,0.931,22.34,0.65,13.55
0.1,0.33,0.0706,pin,A,1.53,0.922,18.87,0.68,11.86
0.2,0.3,0.1,pin,H,1.5,0.806,18.61,0.58,6.9
0.2,0.2,0.07,pin,E,1.6,1.021,19.94,0.745,15.17
0.4,0.33,0.07,pin,A,1.6,0.92,15.4,0.66,9.4
0.2,0.4,0.1,nip,A,1.6,1.02,18.2,0.49,9.06
0.08,0.33,0.1,pin,H,1.53,0.95,17.88,0.73,12.42
0.5,0.3,1,pin,B,1.53,1.04,22.43,0.81,19.08
0.2,0.33,0.05,nip,E,1.5,1.05,22.31,0.78,18.29
0.2,0.6,0.06,pin,A,1.53,1.05,21.3,0.75,16.9
0.14,0.1,0.1,pin,A,1.5,1.084,18.24,0.68,13.67
0.23,0.35,0.08,pin,C,1.58,0.99,17.19,0.72,12.25
0.4,0.1,0.1,pin,C,1.5,0.87,20.4,0.831,14.8
0.4,0.33,10,pin,H,1.53,1.01,20.31,0.67,13.92
0.4,0.33,0.1,pin,A,1.5,1.08,22.38,0.79,19
0.4,0,0.464,pin,A,1.6,0.837,18.67,0.72,11.33
0.19,0.1,0.1,pin,C,1.5,1.02,19.1,0.68,13.65
0.26,0.1,0.1,pin,C,1.5,1.06,19.67,0.7,14.93
0.2,-0.03,0.08,nip,A,1.55,1.08,21.8,0.55,17.66
0.2,0.53,0.1,nip,C,1.53,0.94,15.94,0.69,10.51
0.3,0.4,0.1,pin,H,1.5,0.87,19.8,0.75,13
0.4,0.33,0.1,nip,H,1.53,1.03,17.7,0.56,10.2
0.3,0.33,0.1,pin,H,1.5,0.97,17,0.65,10.73
0.2,0.5,0.08,pin,H,1.6,1.083,21.49,0.71,16.57
0.1,0.3,1,pin,H,1.5,0.93,20.9,0.73,14.18
0.1,0.6,1,pin,H,1.5,0.91,18.1,0.65,10.82
0.2,0.43,7.92,nip,A,1.53,0.3,5.2,0.71,3.1
0.2,0.4,0.12,nip,A,1.45,1.1,23.27,0.7,18.2
0.08,0.05,0.1,nip,H,1.55,0.99,18.1,0.72,13.3
0.3,0.33,0.12,nip,E,1.6,0.909,20.61,0.71,13.41
0.3,0.33,1,nip,E,1.6,0.862,20.81,0.622,11.16
0.2,0.3,0.1,pin,H,1.5,0.88,17.87,0.66,10.34
0.4,0.33,0.16,pin,H,1.53,0.909,17.3,0.57,9
0.2,0.33,0.16,pin,H,1.53,0.72,5,0.3,1.2
0.4,0.6,0.1,pin,H,1.5,0.96,14.9,0.63,9.15
0.4,0.33,0.11,pin,A,1.53,0.73,13.72,0.6,6.05
0.4,0.43,0.1,nip,A,1.5,1.07,22.5,0.7,16.8
0.2,0.7,0.0708,nip,H,1.5,0.8,15,0.6,7.6
0.2,0.33,0.06,pin,A,1.5,0.9,18.84,0.63,10.69
0.2,0.33,0.04,pin,C,1.53,0.99,17.81,0.76,13.58
0.2,0.53,0.09,nip,E,1.5,1.01,17.1,0.64,11
0.11,0.4,0.05,pin,E,1.5,0.9,20.8,0.74,13.85
0.2,0.4,0.05,pin,E,1.5,0.86,18.22,0.58,9.09
0.3,0.53,0.213,pin,H,1.53,0.696,35.6,0.77,19.2
0.2,0.1,0.1,nip,A,1.5,1.1,22.06,0.75,18.38
0.2,0.4,0.09,pin,E,1.5,1.03,20,0.66,13.7
0.2,0.6,0.1,pin,A,1.5,1.01,19.8,0.77,15.59
0.4,0.33,0.1,pin,A,1.53,0.98,16.85,0.73,11.32